{"resourceType":"Bundle","id":"tests-should-screen-bundle","type":"transaction","entry":[{"resource":{"resourceType":"Encounter","id":"should-screen-1","meta":{"profile":["http://hl7.org/fhir/us/core/StructureDefinition/us-core-encounter"]},"status":"finished","class":{"system":"http://terminology.hl7.org/CodeSystem/v3-ActCode","code":"AMB","display":"ambulatory"},"type":[{"coding":[{"system":"http://www.ama-assn.org/go/cpt","code":"99202","display":"Office or other outpatient visit for the evaluation and management of a new patient, which requires these 3 key components: A problem focused history; A problem focused examination; Straightforward medical decision making. Counseling and/or coordination of care with other physicians, other qualified health care professionals, or agencies are provided consistent with the nature of the problem(s) and the patient's and/or family's needs. Usually, the presenting problem(s) are self limited or minor. Typically, 10 minutes are spent face-to-face with the patient and/or family."}]}],"subject":{"reference":"Patient/should-screen"},"period":{"start":"2022-05-30T00:00:00-00:00","end":"2022-05-31T00:00:00-00:00"}},"request":{"method":"PUT","url":"Encounter/should-screen-1"}},{"resource":{"resourceType":"Observation","id":"qicore-observation-imaging-example","meta":{"extension":[{"url":"http://hl7.org/fhir/StructureDefinition/instance-name","valueString":"Mammogram Findings Example"},{"url":"http://hl7.org/fhir/StructureDefinition/instance-description","valueMarkdown":"This example of a US Core Observation Imaging Result Profile illustrates its use to capture information about a patient's radiology study findings."}],"profile":["http://hl7.org/fhir/us/qicore/StructureDefinition/qicore-observation-imaging"]},"status":"final","category":[{"coding":[{"system":"http://terminology.hl7.org/CodeSystem/observation-category","code":"imaging","display":"Imaging"}],"text":"Imaging"}],"code":{"coding":[{"system":"http://loinc.org","code":"24606-6","display":"MG Breast Screening"}],"text":"MG Breast Screening"},"subject":{"reference":"Patient/should-screen"},"effectiveDateTime":"2022-01-01T00:00:00+00:00","issued":"2022-01-01T00:00:00+00:00","valueCodeableConcept":{"coding":[{"system":"http://hl7.org/fhir/us/breast-radiology/CodeSystem/BiRadsAssessmentCategoriesCS","code":"Category2","display":"Category 2 (Benign)"}],"text":"Category 2 (Benign)"},"interpretation":[{"coding":[{"system":"http://terminology.hl7.org/CodeSystem/v3-ObservationInterpretation","code":"N","display":"Normal"}]}],"note":[{"text":"BIRADS Category 2 (Benign)"}],"bodySite":{"coding":[{"system":"http://snomed.info/sct","code":"63762007","display":"Both breasts (body structure)"}],"text":"Both breasts (body structure)"},"method":{"coding":[{"system":"http://snomed.info/sct","code":"24623002","display":"Screening mammography (procedure)"}],"text":"Screening mammography (procedure)"}},"request":{"method":"PUT","url":"Observation/qicore-observation-imaging-example"}},{"resource":{"resourceType":"Observation","id":"imaging-result-xray-chest-findings","meta":{"extension":[{"url":"http://hl7.org/fhir/StructureDefinition/instance-name","valueString":"Xray Chest Findings Example"},{"url":"http://hl7.org/fhir/StructureDefinition/instance-description","valueMarkdown":"This example of a US Core Observation Imaging Result Profile illustrates its use to capture information about a patient's radiology study findings."}],"profile":["http://hl7.org/fhir/us/qicore/StructureDefinition/qicore-observation-imaging"]},"status":"final","category":[{"coding":[{"system":"http://terminology.hl7.org/CodeSystem/observation-category","code":"imaging","display":"Imaging"}],"text":"Imaging"}],"code":{"coding":[{"system":"http://loinc.org","code":"18782-3","display":"Radiology Study observation (narrative)"}],"text":"Findings"},"subject":{"reference":"Patient/should-screen"},"encounter":{"display":"ER Visit"},"effectiveDateTime":"2019-02-03T19:43:30.000Z","valueString":"LINES AND TUBES: None.\\n LUNGS AND PLEURA:\\n Clear lungs. Normal pulmonary vascularity.\\n No pleural effusion.\\n No pneumothorax.\\n HEART, MEDIASTINUM AND HILA:\\n Heart is normal in size.\\n Normal mediastinal and hilar contour.\\n BONES AND SOFT TISSUES:\\n No acute abnormality.\\n"},"request":{"method":"PUT","url":"Observation/imaging-result-xray-chest-findings"}},{"resource":{"resourceType":"GuidanceResponse","id":"should-screen-5","contained":[{"resourceType":"CarePlan","id":"expected","instantiatesCanonical":["http://fhir.org/guides/cqf/bcc/PlanDefinition/ColorectalCancerScreeningCDS"],"status":"draft","intent":"proposal","subject":{"reference":"Patient/should-screen"},"activity":[{"reference":{"reference":"#screening-recommended"}}]},{"resourceType":"ServiceRequest","id":"screening-recommended","extension":[{"url":"http://hl7.org/fhir/uv/cpg/StructureDefinition/cpg-rationale","valueMarkdown":"Patient meets the inclusion criteria for appropriate colorectal cancer screening, but has most recent Colonoscopy performed on 2009-12-30"}],"status":"draft","intent":"proposal","doNotPerform":true,"code":{"text":"Colorectal Cancer Screening Recommended"},"subject":{"reference":"Patient/should-screen"},"supportingInfo":[{"reference":"should-screen-2"}]}],"moduleCanonical":"http://fhir.org/guides/cqf/bcc/PlanDefinition/ColorectalCancerScreeningCDS","status":"success","subject":{"reference":"Patient/should-screen"},"result":{"reference":"#expected"}},"request":{"method":"PUT","url":"GuidanceResponse/should-screen-5"}},{"resource":{"resourceType":"Patient","id":"should-screen","meta":{"profile":["http://hl7.org/fhir/us/core/StructureDefinition/us-core-patient"]},"extension":[{"url":"http://hl7.org/fhir/us/core/StructureDefinition/us-core-race","extension":[{"url":"ombCategory","valueCoding":{"system":"urn:oid:2.16.840.1.113883.6.238","code":"2028-9","display":"Asian"}}]},{"url":"http://hl7.org/fhir/us/core/StructureDefinition/us-core-ethnicity","extension":[{"url":"ombCategory","valueCoding":{"system":"urn:oid:2.16.840.1.113883.6.238","code":"2135-2","display":"Hispanic or Latino"}}]}],"identifier":[{"use":"usual","type":{"coding":[{"system":"http://terminology.hl7.org/CodeSystem/v2-0203","code":"MR","display":"Medical Record Number"}]},"system":"http://hospital.smarthealthit.org","value":"999999993"}],"name":[{"family":"Dormand","given":["Frances"]}],"gender":"female","birthDate":"1968-01-01"},"request":{"method":"PUT","url":"Patient/should-screen"}}]}