{"resourceType":"Bundle","id":"tests-up-to-date-bundle","type":"transaction","entry":[{"resource":{"resourceType":"Observation","id":"up-to-date-mammogram.","meta":{"extension":[{"url":"http://hl7.org/fhir/StructureDefinition/instance-name","valueString":"Mammogram Findings Example"},{"url":"http://hl7.org/fhir/StructureDefinition/instance-description","valueMarkdown":"This example of a US Core Observation Imaging Result Profile illustrates its use to capture information about a patient's radiology study findings."}],"profile":["http://hl7.org/fhir/us/qicore/StructureDefinition/qicore-observation-imaging"]},"status":"final","category":[{"coding":[{"system":"http://terminology.hl7.org/CodeSystem/observation-category","code":"imaging","display":"Imaging"}],"text":"Imaging"}],"code":{"coding":[{"system":"http://loinc.org","code":"24606-6","display":"MG Breast Screening"}],"text":"MG Breast Screening"},"subject":{"reference":"Patient/bcs-up-to-date"},"effectiveDateTime":"2024-01-01T00:00:00+00:00","issued":"2024-01-01T00:00:00+00:00","valueCodeableConcept":{"coding":[{"system":"http://hl7.org/fhir/us/breast-radiology/CodeSystem/BiRadsAssessmentCategoriesCS","code":"Category2","display":"Category 2 (Benign)"}],"text":"Category 2 (Benign)"},"interpretation":[{"coding":[{"system":"http://terminology.hl7.org/CodeSystem/v3-ObservationInterpretation","code":"N","display":"Normal"}]}],"note":[{"text":"BIRADS Category 2 (Benign)"}],"bodySite":{"coding":[{"system":"http://snomed.info/sct","code":"63762007","display":"Both breasts (body structure)"}],"text":"Both breasts (body structure)"},"method":{"coding":[{"system":"http://snomed.info/sct","code":"24623002","display":"Screening mammography (procedure)"}],"text":"Screening mammography (procedure)"}},"request":{"method":"PUT","url":"Observation/up-to-date-mammogram."}},{"resource":{"resourceType":"GuidanceResponse","id":"up-to-date-guidanceresponse","contained":[{"resourceType":"CarePlan","id":"expected","instantiatesCanonical":["#up-to-date-plandefinition"],"status":"draft","intent":"proposal","subject":{"reference":"Patient/bcs-up-to-date"},"activity":[{"reference":{"reference":"#screening-not-recommended"}}]},{"resourceType":"ServiceRequest","id":"screening-not-recommended","extension":[{"url":"http://hl7.org/fhir/uv/cpg/StructureDefinition/cpg-rationale","valueMarkdown":"This patient had a mammogram less that two years ago. The date of her most recent mammogram was 2024-01-01"}],"status":"draft","intent":"proposal","doNotPerform":true,"code":{"text":"Up to date"},"subject":{"reference":"Patient/bcs-up-to-date"},"supportingInfo":[{"reference":"Observation/up-to-date-mammogram"}]},{"resourceType":"PlanDefinition","id":"up-to-date-plandefinition","meta":{"profile":["http://hl7.org/fhir/uv/cpg/StructureDefinition/cpg-recommendationdefinition"]},"extension":[{"url":"http://hl7.org/fhir/uv/cpg/StructureDefinition/cpg-knowledgeCapability","valueCode":"shareable"},{"url":"http://hl7.org/fhir/uv/cpg/StructureDefinition/cpg-knowledgeCapability","valueCode":"computable"},{"url":"http://hl7.org/fhir/uv/cpg/StructureDefinition/cpg-knowledgeCapability","valueCode":"executable"},{"url":"http://hl7.org/fhir/uv/cpg/StructureDefinition/cpg-knowledgeCapability","valueCode":"publishable"}],"url":"http://fhir.org/guides/dhes/bcc/PlanDefinition/BreastCancerScreeningCDS","version":"0.1.0","name":"PlanDefinition_BreastCancerScreeningCDS","title":"PlanDefinition - Breast Cancer Screening CDS","type":{"coding":[{"system":"http://terminology.hl7.org/CodeSystem/plan-definition-type","code":"eca-rule","display":"ECA Rule"}]},"status":"draft","experimental":true,"date":"2019-05-15","publisher":"Dan Heslinga","description":"Breast Cancer Screening CDS","library":["http://fhir.org/guides/dhes/cqf/Library/BreastCancerScreeningCDS"],"action":[{"title":"Breast Cancer Screening","description":"The U.S. Preventive Services Task Force (2016) recommends screening for Breast cancer starting at age 50 years and continuing until age 75 years. This is a Grade A recommendation (U.S. Preventive Services Task Force, 2016).","documentation":[{"type":"documentation","display":"U.S. Preventive Services Task Force Final Recommendation Statement Breast Cancer: Screening","url":"https://www.uspreventiveservicestaskforce.org/uspstf/recommendation/breast-cancer-screening"}],"trigger":[{"type":"named-event","name":"patient-view"}],"condition":[{"kind":"applicability","expression":{"language":"text/cql-identifier","expression":"Recommendation is applicable"}}],"dynamicValue":[{"path":"$this","expression":{"language":"text/cql-identifier","expression":"Get Card Detail"}},{"path":"$this","expression":{"language":"text/cql-identifier","expression":"Get Card Summary"}},{"path":"$this","expression":{"language":"text/cql-identifier","expression":"Get Card Indicator"}}]}]}],"moduleCanonical":"#up-to-date-plandefinition","status":"success","subject":{"reference":"Patient/bcs-up-to-date"},"result":{"reference":"#expected"}},"request":{"method":"PUT","url":"GuidanceResponse/up-to-date-guidanceresponse"}},{"resource":{"resourceType":"Encounter","id":"up-to-date-encounter","meta":{"profile":["http://hl7.org/fhir/us/core/StructureDefinition/us-core-encounter"]},"status":"finished","class":{"system":"http://terminology.hl7.org/CodeSystem/v3-ActCode","code":"AMB","display":"ambulatory"},"type":[{"coding":[{"system":"http://www.ama-assn.org/go/cpt","code":"99202"}]}],"subject":{"reference":"Patient/bcs-up-to-date"},"period":{"start":"2022-05-30T00:00:00-00:00","end":"2022-05-31T00:00:00-00:00"}},"request":{"method":"PUT","url":"Encounter/up-to-date-encounter"}},{"resource":{"resourceType":"Patient","id":"bcs-up-to-date","meta":{"profile":["http://hl7.org/fhir/us/core/StructureDefinition/us-core-patient"]},"extension":[{"url":"http://hl7.org/fhir/us/core/StructureDefinition/us-core-race","extension":[{"url":"ombCategory","valueCoding":{"system":"urn:oid:2.16.840.1.113883.6.238","code":"2028-9","display":"Asian"}}]},{"url":"http://hl7.org/fhir/us/core/StructureDefinition/us-core-ethnicity","extension":[{"url":"ombCategory","valueCoding":{"system":"urn:oid:2.16.840.1.113883.6.238","code":"2135-2","display":"Hispanic or Latino"}}]}],"identifier":[{"use":"usual","type":{"coding":[{"system":"http://terminology.hl7.org/CodeSystem/v2-0203","code":"MR","display":"Medical Record Number"}]},"system":"http://hospital.smarthealthit.org","value":"999999992"}],"active":true,"name":[{"family":"Dere","given":["Dorothy"]}],"gender":"female","birthDate":"1968-01-01","deceasedBoolean":false},"request":{"method":"PUT","url":"Patient/bcs-up-to-date"}},{"resource":{"resourceType":"Observation","id":"up-to-date-cxr","meta":{"extension":[{"url":"http://hl7.org/fhir/StructureDefinition/instance-name","valueString":"Xray Chest Findings Example"},{"url":"http://hl7.org/fhir/StructureDefinition/instance-description","valueMarkdown":"This example of a US Core Observation Imaging Result Profile illustrates its use to capture information about a patient's radiology study findings."}],"profile":["http://hl7.org/fhir/us/qicore/StructureDefinition/qicore-observation-imaging"]},"status":"final","category":[{"coding":[{"system":"http://terminology.hl7.org/CodeSystem/observation-category","code":"imaging","display":"Imaging"}],"text":"Imaging"}],"code":{"coding":[{"system":"http://loinc.org","code":"18782-3","display":"Radiology Study observation (narrative)"}],"text":"Findings"},"subject":{"reference":"Patient/bcs-up-to-date"},"effectiveDateTime":"2019-02-03T19:43:30.000Z","issued":"2019-02-03T19:43:30.000Z","valueString":"LINES AND TUBES: None.\\n LUNGS AND PLEURA:\\n Clear lungs. Normal pulmonary vascularity.\\n No pleural effusion.\\n No pneumothorax.\\n HEART, MEDIASTINUM AND HILA:\\n Heart is normal in size.\\n Normal mediastinal and hilar contour.\\n BONES AND SOFT TISSUES:\\n No acute abnormality.\\n"},"request":{"method":"PUT","url":"Observation/up-to-date-cxr"}}]}