{"resourceType":"Bundle","id":"tests-too-young-bundle","type":"transaction","entry":[{"resource":{"resourceType":"Patient","id":"bcs-too-young","meta":{"profile":["http://hl7.org/fhir/us/core/StructureDefinition/us-core-patient"]},"extension":[{"url":"http://hl7.org/fhir/us/core/StructureDefinition/us-core-race","extension":[{"url":"ombCategory","valueCoding":{"system":"urn:oid:2.16.840.1.113883.6.238","code":"2028-9","display":"Asian"}}]},{"url":"http://hl7.org/fhir/us/core/StructureDefinition/us-core-ethnicity","extension":[{"url":"ombCategory","valueCoding":{"system":"urn:oid:2.16.840.1.113883.6.238","code":"2135-2","display":"Hispanic or Latino"}}]}],"identifier":[{"use":"usual","type":{"coding":[{"system":"http://terminology.hl7.org/CodeSystem/v2-0203","code":"MR","display":"Medical Record Number"}]},"system":"http://hospital.smarthealthit.org","value":"999999992"}],"active":true,"name":[{"family":"Doodle","given":["Jane"]}],"gender":"female","birthDate":"1974-01-02","deceasedBoolean":false},"request":{"method":"PUT","url":"Patient/bcs-too-young"}},{"resource":{"resourceType":"Encounter","id":"too-young-encounter","meta":{"profile":["http://hl7.org/fhir/us/core/StructureDefinition/us-core-encounter"]},"status":"finished","class":{"system":"http://terminology.hl7.org/CodeSystem/v3-ActCode","code":"AMB","display":"ambulatory"},"type":[{"coding":[{"system":"http://www.ama-assn.org/go/cpt","code":"99202"}]}],"subject":{"reference":"Patient/bcs-too-young"},"period":{"start":"2022-05-30T00:00:00-00:00","end":"2022-05-31T00:00:00-00:00"}},"request":{"method":"PUT","url":"Encounter/too-young-encounter"}},{"resource":{"resourceType":"GuidanceResponse","id":"too-young-guidanceresponse","contained":[{"resourceType":"CarePlan","id":"expected","instantiatesCanonical":["http://fhir.org/guides/dhes/bcc/PlanDefinition/BreastCancerScreeningCDS"],"status":"draft","intent":"proposal","subject":{"reference":"Patient/bcs-too-young"},"activity":[{"reference":{"reference":"#screening-not-recommended"}}]},{"resourceType":"ServiceRequest","id":"screening-not-recommended","extension":[{"url":"http://hl7.org/fhir/uv/cpg/StructureDefinition/cpg-rationale","valueMarkdown":"This patient is too young for breast cancer screening. "}],"status":"draft","intent":"proposal","doNotPerform":true,"code":{"text":"Too young"},"subject":{"reference":"Patient/bcs-too-young"}}],"moduleCanonical":"http://fhir.org/guides/dhes/bcc/PlanDefinition/BreastCancerScreeningCDS","status":"success","subject":{"reference":"Patient/bcs-too-young"},"result":{"reference":"#expected"}},"request":{"method":"PUT","url":"GuidanceResponse/too-young-guidanceresponse"}},{"resource":{"resourceType":"Observation","id":"too-young-cxr","meta":{"extension":[{"url":"http://hl7.org/fhir/StructureDefinition/instance-name","valueString":"Xray Chest Findings Example"},{"url":"http://hl7.org/fhir/StructureDefinition/instance-description","valueMarkdown":"This example of a US Core Observation Imaging Result Profile illustrates its use to capture information about a patient's radiology study findings."}],"profile":["http://hl7.org/fhir/us/qicore/StructureDefinition/qicore-observation-imaging"]},"status":"final","category":[{"coding":[{"system":"http://terminology.hl7.org/CodeSystem/observation-category","code":"imaging","display":"Imaging"}],"text":"Imaging"}],"code":{"coding":[{"system":"http://loinc.org","code":"18782-3","display":"Radiology Study observation (narrative)"}],"text":"Findings"},"subject":{"reference":"Patient/bcs-too-young"},"effectiveDateTime":"2019-02-03T19:43:30.000Z","issued":"2019-02-03T19:43:30.000Z","valueString":"LINES AND TUBES: None.\\n LUNGS AND PLEURA:\\n Clear lungs. Normal pulmonary vascularity.\\n No pleural effusion.\\n No pneumothorax.\\n HEART, MEDIASTINUM AND HILA:\\n Heart is normal in size.\\n Normal mediastinal and hilar contour.\\n BONES AND SOFT TISSUES:\\n No acute abnormality.\\n"},"request":{"method":"PUT","url":"Observation/too-young-cxr"}}]}