{
  "resourceType": "GuidanceResponse",
  "id": "too-young-guidanceresponse",
  "contained": [
    {
      "resourceType": "CarePlan",
      "id": "expected",
      "instantiatesCanonical": [
        "http://fhir.org/guides/dhes/bcc/PlanDefinition/BreastCancerScreeningCDS"
      ],
      "status": "draft",
      "intent": "proposal",
      "subject": {
        "reference": "Patient/bcs-too-young"
      },
      "activity": [
        {
          "reference": {
            "reference": "#screening-not-recommended"
          }
        }
      ]
    },
    {
      "resourceType": "ServiceRequest",
      "id": "screening-not-recommended",
      "extension": [
        {
          "url": "http://hl7.org/fhir/uv/cpg/StructureDefinition/cpg-rationale",
          "valueMarkdown": "This patient is too young for breast cancer screening. "
        }
      ],
      "status": "draft",
      "intent": "proposal",
      "doNotPerform": true,
      "code": {
        "text": "Too young"
      },
      "subject": {
        "reference": "Patient/bcs-too-young"
      }
    }
  ],
  "moduleCanonical": "http://fhir.org/guides/dhes/bcc/PlanDefinition/BreastCancerScreeningCDS",
  "status": "success",
  "subject": {
    "reference": "Patient/bcs-too-young"
  },
  "result": {
    "reference": "#expected"
  }
}
