{
  "resourceType": "GuidanceResponse",
  "id": "mastectomy-guidanceresponse",
  "contained": [
    {
      "resourceType": "CarePlan",
      "id": "expected",
      "instantiatesCanonical": [
        "http://fhir.org/guides/dhes/bcc/PlanDefinition/BreastCancerScreeningCDS"
      ],
      "status": "draft",
      "intent": "proposal",
      "subject": {
        "reference": "Patient/mastectomy"
      },
      "activity": [
        {
          "reference": {
            "reference": "#screening-recommended"
          }
        }
      ]
    },
    {
      "resourceType": "ServiceRequest",
      "id": "screening-recommended",
      "extension": [
        {
          "url": "http://hl7.org/fhir/uv/cpg/StructureDefinition/cpg-rationale",
          "valueMarkdown": "Patient meets the inclusion criteria for breast cancer screening and is due, because the most recent mammogram was performed on 2021-12-01, more that two years ago"
        }
      ],
      "status": "draft",
      "intent": "proposal",
      "doNotPerform": true,
      "code": {
        "text": "Breast Cancer Screening Recommended"
      },
      "subject": {
        "reference": "Patient/mastectomy"
      },
      "supportingInfo": [
        {
          "reference": "Observation/mastectomy-mammogram"
        }
      ]
    }
  ],
  "moduleCanonical": "http://fhir.org/guides/dhes/bcc/PlanDefinition/BreastCancerScreeningCDS",
  "status": "success",
  "subject": {
    "reference": "Patient/mastectomy"
  },
  "result": {
    "reference": "#expected"
  }
}
