{
  "resourceType": "GuidanceResponse",
  "id": "up-to-date-guidanceresponse",
  "contained": [
    {
      "resourceType": "CarePlan",
      "id": "expected",
      "instantiatesCanonical": [
        "#up-to-date-plandefinition"
      ],
      "status": "draft",
      "intent": "proposal",
      "subject": {
        "reference": "Patient/up-to-date"
      },
      "activity": [
        {
          "reference": {
            "reference": "#screening-not-recommended"
          }
        }
      ]
    },
    {
      "resourceType": "ServiceRequest",
      "id": "screening-not-recommended",
      "extension": [
        {
          "url": "http://hl7.org/fhir/uv/cpg/StructureDefinition/cpg-rationale",
          "valueMarkdown": "This patient had a mammogram less that two years ago. The date of her most recent mammogram was 2024-01-01"
        }
      ],
      "status": "draft",
      "intent": "proposal",
      "doNotPerform": true,
      "code": {
        "text": "Up to date"
      },
      "subject": {
        "reference": "Patient/up-to-date"
      },
      "supportingInfo": [
        {
          "reference": "Observation/up-to-date-mammogram"
        }
      ]
    },
    {
      "resourceType": "PlanDefinition",
      "id": "up-to-date-plandefinition",
      "url": "http://fhir.org/guides/dhes/bcc/PlanDefinition/BreastCancerScreeningCDS",
      "version": "0.1.0",
      "publisher": "Dan Heslinga",
      "meta": {
        "profile": [
          "http://hl7.org/fhir/uv/cpg/StructureDefinition/cpg-recommendationdefinition"
        ]
      },
      "type": {
        "coding": [
          {
            "code": "eca-rule",
            "display": "ECA Rule",
            "system": "http://terminology.hl7.org/CodeSystem/plan-definition-type"
          }
        ]
      },
      "action": [
        {
          "condition": [
            {
              "kind": "applicability",
              "expression": {
                "expression": "Recommendation is applicable",
                "language": "text/cql-identifier"
              }
            }
          ],
          "documentation": [
            {
              "display": "U.S. Preventive Services Task Force Final Recommendation Statement Breast Cancer: Screening",
              "type": "documentation",
              "url": "https://www.uspreventiveservicestaskforce.org/uspstf/recommendation/breast-cancer-screening"
            }
          ],
          "dynamicValue": [
            {
              "path": "$this",
              "expression": {
                "expression": "Get Card Detail",
                "language": "text/cql-identifier"
              }
            },
            {
              "path": "$this",
              "expression": {
                "expression": "Get Card Summary",
                "language": "text/cql-identifier"
              }
            },
            {
              "path": "$this",
              "expression": {
                "expression": "Get Card Indicator",
                "language": "text/cql-identifier"
              }
            }
          ],
          "trigger": [
            {
              "name": "patient-view",
              "type": "named-event"
            }
          ],
          "description": "The U.S. Preventive Services Task Force (2016) recommends screening for Breast cancer starting at age 50 years and continuing until age 75 years. This is a Grade A recommendation (U.S. Preventive Services Task Force, 2016).",
          "title": "Breast Cancer Screening"
        }
      ],
      "library": [
        "http://fhir.org/guides/dhes/bcc/Library/BreastCancerScreeningCDS"
      ],
      "extension": [
        {
          "valueCode": "shareable",
          "url": "http://hl7.org/fhir/uv/cpg/StructureDefinition/cpg-knowledgeCapability"
        },
        {
          "valueCode": "computable",
          "url": "http://hl7.org/fhir/uv/cpg/StructureDefinition/cpg-knowledgeCapability"
        },
        {
          "valueCode": "executable",
          "url": "http://hl7.org/fhir/uv/cpg/StructureDefinition/cpg-knowledgeCapability"
        },
        {
          "valueCode": "publishable",
          "url": "http://hl7.org/fhir/uv/cpg/StructureDefinition/cpg-knowledgeCapability"
        }
      ],
      "date": "2019-05-15",
      "experimental": true,
      "title": "PlanDefinition - Breast Cancer Screening CDS",
      "status": "draft",
      "description": "Breast Cancer Screening CDS",
      "name": "PlanDefinition_BreastCancerScreeningCDS"
    }
  ],
  "moduleCanonical": "#up-to-date-plandefinition",
  "status": "success",
  "subject": {
    "reference": "Patient/up-to-date"
  },
  "result": {
    "reference": "#expected"
  }
}
