{
  "resourceType": "GuidanceResponse",
  "id": "should-screen-5",
  "contained": [
    {
      "resourceType": "CarePlan",
      "id": "expected",
      "instantiatesCanonical": [
        "http://fhir.org/guides/cqf/ccc/PlanDefinition/BreastCancerScreeningCDS"
      ],
      "status": "draft",
      "intent": "proposal",
      "subject": {
        "reference": "Patient/overdue"
      },
      "activity": [
        {
          "reference": {
            "reference": "#screening-recommended"
          }
        }
      ]
    },
    {
      "resourceType": "ServiceRequest",
      "id": "screening-recommended",
      "extension": [
        {
          "url": "http://hl7.org/fhir/uv/cpg/StructureDefinition/cpg-rationale",
          "valueMarkdown": "Patient meets the inclusion criteria for appropriate Breast cancer screening, but has most recent Mammogram performed on 2009-12-30"
        }
      ],
      "status": "draft",
      "intent": "proposal",
      "doNotPerform": true,
      "code": {
        "text": "Breast Cancer Screening Recommended"
      },
      "subject": {
        "reference": "Patient/should-screen"
      },
      "supportingInfo": [
        {
          "reference": "should-screen-2"
        }
      ]
    }
  ],
  "moduleCanonical": "http://fhir.org/guides/cqf/ccc/PlanDefinition/BreastCancerScreeningCDS",
  "status": "success",
  "subject": {
    "reference": "Patient/should-screen"
  },
  "result": {
    "reference": "#expected"
  }
}
